" File: Users\Wavelength\Desktop\test.SSM
"  SCOPE->  Wave:448.60nm  Pix:451  Val: 53.400  Time: 70ms  Avg:5  Sm:0  Sg:0  Tc:off  Z  SNAP  Xt:1  Ch:1  Xtrig  
 400.00  1.6221E+000
 400.50  -1.1696E+001
 401.00  -1.2857E+001
 401.50  -9.7336E+000
 402.00  -1.0086E+001
 402.50  -1.5966E+001
 403.00  -6.8146E+000
 403.50  -5.9335E+000
 404.00  -2.1591E+001
 404.50  -2.3113E+001
 405.00  -1.2172E+001
 405.50  1.1145E+000
 406.00  -3.9312E+000
 406.50  -4.0552E+000
 407.00  -1.7450E+001
 407.50  -1.8785E+001
 408.00  -4.7295E+000
 408.50  -5.1414E+000
 409.00  -9.3131E+000
 409.50  -1.0600E+001
 410.00  -3.6451E+000
 410.50  1.9820E-001
 411.00  -1.4866E+001
 411.50  -1.2979E+001
 412.00  -1.0110E+001
 412.50  -2.8112E+000
 413.00  -7.0943E+000
 413.50  -5.0282E+000
 414.00  -3.1252E+000
 414.50  3.1535E+000
 415.00  3.8306E-001
 415.50  9.0000E+000
 416.00  1.5468E+001
 416.50  2.0247E+001
 417.00  1.6986E+000
 417.50  -5.4193E+000
 418.00  -7.8613E+000
 418.50  -7.6756E+000
 419.00  -3.6227E+000
 419.50  8.4647E+000
 420.00  8.5913E+000
 420.50  -2.3437E+000
 421.00  -8.9736E+000
 421.50  -4.9091E+000
 422.00  7.5109E+000
 422.50  3.2675E+000
 423.00  5.6913E+000
 423.50  9.6565E+000
 424.00  2.3718E+001
 424.50  1.4760E+001
 425.00  1.8587E+001
 425.50  2.3339E+001
 426.00  1.7904E+001
 426.50  3.1196E+001
 427.00  2.5739E+001
 427.50  3.6980E+000
 428.00  -1.1766E+000
 428.50  8.4293E+000
 429.00  1.5491E+001
 429.50  1.7971E+001
 430.00  1.4445E+001
 430.50  1.1285E+001
 431.00  1.8770E+000
 431.50  -6.4703E+000
 432.00  5.4015E+000
 432.50  7.2588E+000
 433.00  1.3126E+001
 433.50  1.9092E+001
 434.00  1.1030E+001
 434.50  1.2187E+001
 435.00  1.0625E+000
 435.50  7.2650E+000
 436.00  1.6414E+001
 436.50  1.8338E+001
 437.00  3.0847E+001
 437.50  3.6454E+001
 438.00  3.5680E+001
 438.50  3.6389E+001
 439.00  4.5758E+001
 439.50  4.5965E+001
 440.00  4.1018E+001
 440.50  4.1904E+001
 441.00  4.4006E+001
 441.50  5.1920E+001
 442.00  5.4276E+001
 442.50  4.0026E+001
 443.00  4.0628E+001
 443.50  4.1573E+001
 444.00  4.3423E+001
 444.50  4.6293E+001
 445.00  5.4586E+001
 445.50  5.5311E+001
 446.00  4.6996E+001
 446.50  3.7600E+001
 447.00  4.3113E+001
 447.50  3.8809E+001
 448.00  3.7219E+001
 448.50  4.9996E+001
 449.00  3.4972E+001
 449.50  3.6598E+001
 450.00  5.3769E+001
 450.50  5.5986E+001
 451.00  5.4941E+001
 451.50  4.4130E+001
 452.00  3.4947E+001
 452.50  3.6354E+001
 453.00  4.9128E+001
 453.50  3.7642E+001
 454.00  5.7584E+001
 454.50  4.3277E+001
 455.00  3.2935E+001
 455.50  4.3626E+001
 456.00  5.1074E+001
 456.50  3.5837E+001
 457.00  4.6437E+001
 457.50  3.6990E+001
 458.00  3.8637E+001
 458.50  3.3181E+001
 459.00  4.8298E+001
 459.50  3.1144E+001
 460.00  3.8637E+001
 460.50  3.7168E+001
 461.00  3.7906E+001
 461.50  3.7207E+001
 462.00  4.2927E+001
 462.50  2.5057E+001
 463.00  1.3821E+001
 463.50  1.9395E+001
 464.00  7.5109E+000
 464.50  5.7250E-001
 465.00  1.6136E+001
 465.50  1.9986E+001
 466.00  1.6135E+001
 466.50  2.1538E+001
 467.00  2.0684E+001
 467.50  1.6122E+001
 468.00  1.5259E+001
 468.50  2.0170E+001
 469.00  1.7016E+001
 469.50  1.0254E+001
 470.00  1.8365E+001
 470.50  2.5254E+001
 471.00  3.3551E+001
 471.50  2.9041E+001
 472.00  2.6188E+001
 472.50  2.8333E+001
 473.00  2.0448E+001
 473.50  1.8763E+001
 474.00  1.2940E+001
 474.50  3.0266E+001
 475.00  4.2801E+001
 475.50  3.9073E+001
 476.00  3.7846E+001
 476.50  2.8687E+001
 477.00  3.3427E+001
 477.50  2.1263E+001
 478.00  3.4282E+001
 478.50  2.5998E+001
 479.00  3.6481E+001
 479.50  3.5070E+001
 480.00  4.7407E+001
 480.50  3.5638E+001
 481.00  2.6887E+001
 481.50  2.3003E+001
 482.00  3.0960E+001
 482.50  4.4049E+001
 483.00  4.1147E+001
 483.50  3.6623E+001
 484.00  4.7719E+001
 484.50  4.2792E+001
 485.00  3.0664E+001
 485.50  4.5208E+001
 486.00  5.0624E+001
 486.50  5.5383E+001
 487.00  5.7066E+001
 487.50  5.2727E+001
 488.00  3.8931E+001
 488.50  3.8332E+001
 489.00  5.4203E+001
 489.50  4.2255E+001
 490.00  4.1974E+001
 490.50  4.6580E+001
 491.00  7.2411E+001
 491.50  6.7311E+001
 492.00  6.5036E+001
 492.50  4.6411E+001
 493.00  3.5829E+001
 493.50  6.0502E+001
 494.00  4.2960E+001
 494.50  3.6604E+001
 495.00  3.7568E+001
 495.50  4.6866E+001
 496.00  5.3470E+001
 496.50  4.2545E+001
 497.00  5.2908E+001
 497.50  6.3895E+001
 498.00  6.1126E+001
 498.50  5.7997E+001
 499.00  6.5534E+001
 499.50  7.1709E+001
 500.00  7.5121E+001
 500.50  7.8289E+001
 501.00  8.0213E+001
 501.50  8.4355E+001
 502.00  8.5132E+001
 502.50  8.5199E+001
 503.00  8.3298E+001
 503.50  8.9256E+001
 504.00  9.2400E+001
 504.50  9.5374E+001
 505.00  9.0921E+001
 505.50  9.7294E+001
 506.00  8.5897E+001
 506.50  1.0202E+002
 507.00  9.2504E+001
 507.50  9.5338E+001
 508.00  1.0049E+002
 508.50  1.1232E+002
 509.00  1.0932E+002
 509.50  1.1830E+002
 510.00  1.1563E+002
 510.50  1.1803E+002
 511.00  1.2296E+002
 511.50  1.2731E+002
 512.00  1.2829E+002
 512.50  1.0991E+002
 513.00  1.0899E+002
 513.50  1.1807E+002
 514.00  1.1421E+002
 514.50  1.0681E+002
 515.00  9.9405E+001
 515.50  1.0892E+002
 516.00  1.0918E+002
 516.50  1.0675E+002
 517.00  9.7077E+001
 517.50  1.0791E+002
 518.00  1.0738E+002
 518.50  1.1727E+002
 519.00  1.0390E+002
 519.50  1.1627E+002
 520.00  1.1874E+002
 520.50  1.1869E+002
 521.00  1.2565E+002
 521.50  1.3266E+002
 522.00  1.2769E+002
 522.50  1.3992E+002
 523.00  1.4380E+002
 523.50  1.3823E+002
 524.00  1.3081E+002
 524.50  1.3700E+002
 525.00  1.4253E+002
 525.50  1.3155E+002
 526.00  1.3345E+002
 526.50  1.2563E+002
 527.00  1.2314E+002
 527.50  1.4317E+002
 528.00  1.4800E+002
 528.50  1.6003E+002
 529.00  1.6823E+002
 529.50  1.5861E+002
 530.00  1.5878E+002
 530.50  1.7091E+002
 531.00  1.5054E+002
 531.50  1.6250E+002
 532.00  1.7832E+002
 532.50  1.7972E+002
 533.00  1.6844E+002
 533.50  1.7136E+002
 534.00  1.7093E+002
 534.50  1.6250E+002
 535.00  1.5944E+002
 535.50  1.7243E+002
 536.00  1.8809E+002
 536.50  1.8210E+002
 537.00  1.8066E+002
 537.50  1.8697E+002
 538.00  1.9505E+002
 538.50  1.8640E+002
 539.00  2.0111E+002
 539.50  1.8122E+002
 540.00  1.7363E+002
 540.50  1.7819E+002
 541.00  1.9876E+002
 541.50  1.9777E+002
 542.00  1.9188E+002
 542.50  2.0559E+002
 543.00  2.1710E+002
 543.50  2.1743E+002
 544.00  2.1772E+002
 544.50  2.0993E+002
 545.00  2.1145E+002
 545.50  2.1374E+002
 546.00  2.1491E+002
 546.50  2.0852E+002
 547.00  2.1248E+002
 547.50  2.0402E+002
 548.00  2.0570E+002
 548.50  2.0563E+002
 549.00  2.1698E+002
 549.50  2.1181E+002
 550.00  2.1023E+002
 550.50  2.1919E+002
 551.00  2.2518E+002
 551.50  2.2964E+002
 552.00  2.1734E+002
 552.50  2.0467E+002
 553.00  2.1765E+002
 553.50  2.1538E+002
 554.00  2.1172E+002
 554.50  2.1677E+002
 555.00  2.1445E+002
 555.50  2.2746E+002
 556.00  2.2304E+002
 556.50  2.1326E+002
 557.00  2.1760E+002
 557.50  2.2405E+002
 558.00  2.1274E+002
 558.50  2.1640E+002
 559.00  2.2382E+002
 559.50  2.3063E+002
 560.00  2.3379E+002
 560.50  2.4470E+002
 561.00  2.4857E+002
 561.50  2.4493E+002
 562.00  2.4447E+002
 562.50  2.4678E+002
 563.00  2.4993E+002
 563.50  2.3317E+002
 564.00  2.5265E+002
 564.50  2.4599E+002
 565.00  2.5565E+002
 565.50  2.5003E+002
 566.00  2.4509E+002
 566.50  2.4176E+002
 567.00  2.4082E+002
 567.50  2.4324E+002
 568.00  2.4393E+002
 568.50  2.6795E+002
 569.00  2.5975E+002
 569.50  2.6635E+002
 570.00  2.6438E+002
 570.50  2.6005E+002
 571.00  2.7002E+002
 571.50  2.5690E+002
 572.00  2.6140E+002
 572.50  2.7224E+002
 573.00  2.7760E+002
 573.50  2.7843E+002
 574.00  2.7916E+002
 574.50  2.7942E+002
 575.00  2.7856E+002
 575.50  2.8525E+002
 576.00  2.8473E+002
 576.50  2.7539E+002
 577.00  2.6563E+002
 577.50  2.5844E+002
 578.00  2.5777E+002
 578.50  2.8064E+002
 579.00  3.0240E+002
 579.50  2.9837E+002
 580.00  2.9852E+002
 580.50  2.9578E+002
 581.00  2.9956E+002
 581.50  2.8652E+002
 582.00  2.8842E+002
 582.50  2.9312E+002
 583.00  2.9235E+002
 583.50  2.7920E+002
 584.00  2.7580E+002
 584.50  2.8029E+002
 585.00  2.8393E+002
 585.50  2.8386E+002
 586.00  2.9838E+002
 586.50  3.1401E+002
 587.00  3.2243E+002
 587.50  3.1470E+002
 588.00  3.1471E+002
 588.50  3.1936E+002
 589.00  3.1715E+002
 589.50  3.0545E+002
 590.00  3.1716E+002
 590.50  3.1207E+002
 591.00  3.0370E+002
 591.50  3.0875E+002
 592.00  3.1373E+002
 592.50  3.1859E+002
 593.00  3.2641E+002
 593.50  3.3235E+002
 594.00  3.4643E+002
 594.50  3.5069E+002
 595.00  3.3896E+002
 595.50  3.3847E+002
 596.00  3.6138E+002
 596.50  3.4254E+002
 597.00  3.5502E+002
 597.50  3.5617E+002
 598.00  3.5229E+002
 598.50  3.3415E+002
 599.00  3.4666E+002
 599.50  3.4366E+002
 600.00  3.3925E+002
 600.50  3.4034E+002
 601.00  3.5205E+002
 601.50  3.5553E+002
 602.00  3.4801E+002
 602.50  3.4934E+002
 603.00  3.3423E+002
 603.50  3.4225E+002
 604.00  3.4946E+002
 604.50  3.5398E+002
 605.00  3.6408E+002
 605.50  3.6220E+002
 606.00  3.5809E+002
 606.50  3.4913E+002
 607.00  3.7554E+002
 607.50  3.7086E+002
 608.00  3.7386E+002
 608.50  3.8121E+002
 609.00  3.7880E+002
 609.50  3.8613E+002
 610.00  3.8889E+002
 610.50  3.8283E+002
 611.00  3.6339E+002
 611.50  3.7803E+002
 612.00  3.7678E+002
 612.50  3.7291E+002
 613.00  3.6458E+002
 613.50  3.7740E+002
 614.00  3.8731E+002
 614.50  3.7497E+002
 615.00  3.8641E+002
 615.50  3.9843E+002
 616.00  3.8431E+002
 616.50  3.7499E+002
 617.00  3.8008E+002
 617.50  3.5839E+002
 618.00  3.6827E+002
 618.50  3.5487E+002
 619.00  3.6880E+002
 619.50  3.8032E+002
 620.00  3.8600E+002
 620.50  3.9642E+002
 621.00  4.0130E+002
 621.50  3.9851E+002
 622.00  3.9837E+002
 622.50  4.1685E+002
 623.00  4.1642E+002
 623.50  4.0193E+002
 624.00  3.9408E+002
 624.50  3.9483E+002
 625.00  3.9363E+002
 625.50  4.0202E+002
 626.00  4.1465E+002
 626.50  4.1455E+002
 627.00  4.1152E+002
 627.50  4.1144E+002
 628.00  4.0981E+002
 628.50  4.2064E+002
 629.00  4.1782E+002
 629.50  4.2789E+002
 630.00  4.3647E+002
 630.50  4.3076E+002
 631.00  4.2614E+002
 631.50  4.2737E+002
 632.00  4.3439E+002
 632.50  4.2311E+002
 633.00  4.3426E+002
 633.50  4.2672E+002
 634.00  4.3125E+002
 634.50  4.3243E+002
 635.00  4.1970E+002
 635.50  4.2424E+002
 636.00  4.3636E+002
 636.50  4.2134E+002
 637.00  4.2027E+002
 637.50  4.3137E+002
 638.00  4.3478E+002
 638.50  4.3156E+002
 639.00  4.4276E+002
 639.50  4.4668E+002
 640.00  4.6028E+002
 640.50  4.6068E+002
 641.00  4.5767E+002
 641.50  4.5228E+002
 642.00  4.6511E+002
 642.50  4.6546E+002
 643.00  4.6768E+002
 643.50  4.8196E+002
 644.00  4.7796E+002
 644.50  4.6547E+002
 645.00  4.6246E+002
 645.50  4.5388E+002
 646.00  4.4570E+002
 646.50  4.5542E+002
 647.00  4.6094E+002
 647.50  4.6084E+002
 648.00  4.8690E+002
 648.50  4.8882E+002
 649.00  4.8494E+002
 649.50  4.8953E+002
 650.00  4.7940E+002
 650.50  5.0003E+002
 651.00  5.0033E+002
 651.50  4.9280E+002
 652.00  4.8107E+002
 652.50  4.8713E+002
 653.00  4.9810E+002
 653.50  4.9581E+002
 654.00  4.9834E+002
 654.50  5.0475E+002
 655.00  5.0430E+002
 655.50  4.9792E+002
 656.00  5.0475E+002
 656.50  5.0995E+002
 657.00  5.0483E+002
 657.50  5.1583E+002
 658.00  5.1805E+002
 658.50  5.1888E+002
 659.00  5.2964E+002
 659.50  5.3415E+002
 660.00  5.2902E+002
 660.50  5.2027E+002
 661.00  5.3285E+002
 661.50  5.3329E+002
 662.00  5.2542E+002
 662.50  5.3030E+002
 663.00  5.4618E+002
 663.50  5.3929E+002
 664.00  5.5078E+002
 664.50  5.4242E+002
 665.00  5.4271E+002
 665.50  5.4260E+002
 666.00  5.2380E+002
 666.50  5.4025E+002
 667.00  5.3920E+002
 667.50  5.4918E+002
 668.00  5.2623E+002
 668.50  5.4651E+002
 669.00  5.3980E+002
 669.50  5.5126E+002
 670.00  5.5478E+002
 670.50  5.6503E+002
 671.00  5.4894E+002
 671.50  5.4481E+002
 672.00  5.4344E+002
 672.50  5.4755E+002
 673.00  5.5764E+002
 673.50  5.6070E+002
 674.00  5.5454E+002
 674.50  5.6440E+002
 675.00  5.7701E+002
 675.50  5.7763E+002
 676.00  5.8003E+002
 676.50  5.8464E+002
 677.00  5.7248E+002
 677.50  5.7217E+002
 678.00  5.8332E+002
 678.50  5.7950E+002
 679.00  5.6503E+002
 679.50  5.6370E+002
 680.00  5.7368E+002
 680.50  5.6922E+002
 681.00  5.5965E+002
 681.50  5.7048E+002
 682.00  5.8497E+002
 682.50  5.7689E+002
 683.00  5.4946E+002
 683.50  5.6005E+002
 684.00  5.6834E+002
 684.50  5.6540E+002
 685.00  5.7463E+002
 685.50  5.8716E+002
 686.00  5.7872E+002
 686.50  5.9169E+002
 687.00  5.9605E+002
 687.50  5.8977E+002
 688.00  5.9447E+002
 688.50  5.9457E+002
 689.00  5.8757E+002
 689.50  5.8828E+002
 690.00  6.0577E+002
 690.50  5.9871E+002
 691.00  5.9690E+002
 691.50  6.0814E+002
 692.00  6.1081E+002
 692.50  6.1201E+002
 693.00  6.0624E+002
 693.50  5.9776E+002
 694.00  6.0923E+002
 694.50  6.1307E+002
 695.00  6.0562E+002
 695.50  6.0160E+002
 696.00  6.0741E+002
 696.50  6.1019E+002
 697.00  6.2065E+002
 697.50  6.3882E+002
 698.00  6.3165E+002
 698.50  6.3898E+002
 699.00  6.2639E+002
 699.50  6.1796E+002
 700.00  6.2436E+002
 700.50  6.2559E+002
 701.00  6.3076E+002
 701.50  6.4152E+002
 702.00  6.4453E+002
 702.50  6.3310E+002
 703.00  6.3314E+002
 703.50  6.4488E+002
 704.00  6.3778E+002
 704.50  6.4466E+002
 705.00  6.4092E+002
 705.50  6.3543E+002
 706.00  6.2743E+002
 706.50  6.2537E+002
 707.00  6.3399E+002
 707.50  6.3058E+002
 708.00  6.4686E+002
 708.50  6.4735E+002
 709.00  6.6222E+002
 709.50  6.6472E+002
 710.00  6.6925E+002
 710.50  6.8886E+002
 711.00  6.6545E+002
 711.50  6.7085E+002
 712.00  6.5658E+002
 712.50  6.6289E+002
 713.00  6.6537E+002
 713.50  6.7292E+002
 714.00  6.7347E+002
 714.50  6.8615E+002
 715.00  6.7811E+002
 715.50  6.7238E+002
 716.00  6.7698E+002
 716.50  6.8520E+002
 717.00  6.9065E+002
 717.50  6.9285E+002
 718.00  6.8083E+002
 718.50  6.8365E+002
 719.00  6.8801E+002
 719.50  6.8078E+002
 720.00  6.7366E+002
 720.50  6.7784E+002
 721.00  6.7463E+002
 721.50  6.9016E+002
 722.00  6.7668E+002
 722.50  6.5981E+002
 723.00  6.7282E+002
 723.50  6.8406E+002
 724.00  6.8495E+002
 724.50  6.8879E+002
 725.00  6.8542E+002
 725.50  6.8612E+002
 726.00  7.0288E+002
 726.50  7.0025E+002
 727.00  7.0951E+002
 727.50  7.1179E+002
 728.00  6.9179E+002
 728.50  6.9431E+002
 729.00  7.1508E+002
 729.50  7.0924E+002
 730.00  7.1840E+002
 730.50  7.2324E+002
 731.00  7.2304E+002
 731.50  7.2967E+002
 732.00  7.2447E+002
 732.50  7.3856E+002
 733.00  7.3186E+002
 733.50  7.2174E+002
 734.00  7.3477E+002
 734.50  7.4560E+002
 735.00  7.3072E+002
 735.50  7.3168E+002
 736.00  7.3701E+002
 736.50  7.5329E+002
 737.00  7.3754E+002
 737.50  7.2834E+002
 738.00  7.2025E+002
 738.50  7.3193E+002
 739.00  7.3989E+002
 739.50  7.4319E+002
 740.00  7.3745E+002
 740.50  7.4611E+002
 741.00  7.4065E+002
 741.50  7.2697E+002
 742.00  7.2551E+002
 742.50  7.1715E+002
 743.00  7.2172E+002
 743.50  7.3120E+002
 744.00  7.4269E+002
 744.50  7.5067E+002
 745.00  7.4632E+002
 745.50  7.5298E+002
 746.00  7.4884E+002
 746.50  7.4443E+002
 747.00  7.4564E+002
 747.50  7.4185E+002
 748.00  7.3560E+002
 748.50  7.5782E+002
 749.00  7.5008E+002
 749.50  7.4416E+002
 750.00  7.4600E+002
 750.50  7.5746E+002
 751.00  7.5482E+002
 751.50  7.5674E+002
 752.00  7.6640E+002
 752.50  7.7121E+002
 753.00  7.7727E+002
 753.50  7.6696E+002
 754.00  7.6784E+002
 754.50  7.5915E+002
 755.00  7.6128E+002
 755.50  7.8348E+002
 756.00  7.7943E+002
 756.50  7.8087E+002
 757.00  7.8228E+002
 757.50  7.7832E+002
 758.00  7.7107E+002
 758.50  7.7130E+002
 759.00  7.6846E+002
 759.50  7.6030E+002
 760.00  7.4461E+002
 760.50  7.5888E+002
 761.00  7.5968E+002
 761.50  7.6261E+002
 762.00  7.4836E+002
 762.50  7.6692E+002
 763.00  7.7583E+002
 763.50  7.7756E+002
 764.00  7.5808E+002
 764.50  7.5431E+002
 765.00  7.5157E+002
 765.50  7.4739E+002
 766.00  7.4268E+002
 766.50  7.3309E+002
 767.00  7.4012E+002
 767.50  7.5191E+002
 768.00  7.6184E+002
 768.50  7.8467E+002
 769.00  7.7745E+002
 769.50  7.8529E+002
 770.00  7.6643E+002
 770.50  7.8924E+002
 771.00  7.9185E+002
 771.50  7.8748E+002
 772.00  7.7149E+002
 772.50  7.8887E+002
 773.00  7.7200E+002
 773.50  7.8036E+002
 774.00  7.8593E+002
 774.50  7.8300E+002
 775.00  7.8530E+002
 775.50  7.8068E+002
 776.00  7.8011E+002
 776.50  7.8426E+002
 777.00  7.9439E+002
 777.50  7.9291E+002
 778.00  7.7380E+002
 778.50  7.6232E+002
 779.00  7.8467E+002
 779.50  7.8156E+002
 780.00  7.8192E+002
 780.50  7.8533E+002
 781.00  7.9470E+002
 781.50  7.9765E+002
 782.00  7.9814E+002
 782.50  8.0789E+002
 783.00  7.9983E+002
 783.50  8.0773E+002
 784.00  7.9469E+002
 784.50  8.0413E+002
 785.00  8.0174E+002
 785.50  7.9713E+002
 786.00  7.9680E+002
 786.50  7.9683E+002
 787.00  7.7678E+002
 787.50  8.0349E+002
 788.00  7.9298E+002
 788.50  8.0491E+002
 789.00  8.1296E+002
 789.50  8.2129E+002
 790.00  8.0185E+002
 790.50  7.9604E+002
 791.00  7.9305E+002
 791.50  7.9207E+002
 792.00  7.9098E+002
 792.50  7.9929E+002
 793.00  8.1047E+002
 793.50  8.0072E+002
 794.00  8.1711E+002
 794.50  8.0969E+002
 795.00  8.1061E+002
 795.50  8.2110E+002
 796.00  8.1995E+002
 796.50  8.1444E+002
 797.00  8.2514E+002
 797.50  8.2911E+002
 798.00  8.2851E+002
 798.50  8.4136E+002
 799.00  8.4774E+002
 799.50  8.5235E+002
 800.00  8.4918E+002
 800.50  8.4351E+002
 801.00  8.3854E+002
 801.50  8.3688E+002
 802.00  8.3140E+002
 802.50  8.3849E+002
 803.00  8.4846E+002
 803.50  8.5207E+002
 804.00  8.6043E+002
 804.50  8.5227E+002
 805.00  8.4506E+002
 805.50  8.2252E+002
 806.00  8.3209E+002
 806.50  8.4938E+002
 807.00  8.1949E+002
 807.50  8.4105E+002
 808.00  8.4728E+002
 808.50  8.4709E+002
 809.00  8.4960E+002
 809.50  8.5014E+002
 810.00  8.7450E+002
 810.50  8.6227E+002
 811.00  8.4997E+002
 811.50  8.3576E+002
 812.00  8.4197E+002
 812.50  8.5095E+002
 813.00  8.6615E+002
 813.50  8.5831E+002
 814.00  8.5340E+002
 814.50  8.4669E+002
 815.00  8.5068E+002
 815.50  8.5939E+002
 816.00  8.6676E+002
 816.50  8.5166E+002
 817.00  8.2359E+002
 817.50  8.3910E+002
 818.00  8.4080E+002
 818.50  8.3853E+002
 819.00  8.3170E+002
 819.50  8.4960E+002
 820.00  8.3792E+002
 820.50  8.3973E+002
 821.00  8.4941E+002
 821.50  8.5907E+002
 822.00  8.7299E+002
 822.50  8.6476E+002
 823.00  8.5193E+002
 823.50  8.5168E+002
 824.00  8.5840E+002
 824.50  8.6749E+002
 825.00  8.6248E+002
 825.50  8.5921E+002
 826.00  8.6357E+002
 826.50  8.6652E+002
 827.00  8.7530E+002
 827.50  8.6496E+002
 828.00  8.4760E+002
 828.50  8.5670E+002
 829.00  8.4958E+002
 829.50  8.6028E+002
 830.00  8.7197E+002
 830.50  8.7529E+002
 831.00  8.6902E+002
 831.50  8.6967E+002
 832.00  8.6951E+002
 832.50  8.8568E+002
 833.00  8.8241E+002
 833.50  8.7751E+002
 834.00  8.6366E+002
 834.50  8.6372E+002
 835.00  8.7261E+002
 835.50  8.6912E+002
 836.00  8.5362E+002
 836.50  8.5401E+002
 837.00  8.6837E+002
 837.50  8.6121E+002
 838.00  8.7249E+002
 838.50  8.7117E+002
 839.00  8.5868E+002
 839.50  8.6313E+002
 840.00  8.7133E+002
 840.50  8.7260E+002
 841.00  8.8229E+002
 841.50  8.9402E+002
 842.00  8.9756E+002
 842.50  8.7970E+002
 843.00  8.7188E+002
 843.50  8.8360E+002
 844.00  8.7889E+002
 844.50  8.6886E+002
 845.00  8.4773E+002
 845.50  8.6318E+002
 846.00  8.7681E+002
 846.50  8.7910E+002
 847.00  8.7873E+002
 847.50  8.8554E+002
 848.00  8.6902E+002
 848.50  8.8087E+002
 849.00  8.8863E+002
 849.50  9.0313E+002
 850.00  8.9724E+002
 850.50  9.0016E+002
 851.00  9.0321E+002
 851.50  8.9422E+002
 852.00  8.7320E+002
 852.50  8.6322E+002
 853.00  8.4852E+002
 853.50  8.5126E+002
 854.00  8.5851E+002
 854.50  8.7028E+002
 855.00  8.8362E+002
 855.50  8.8573E+002
 856.00  8.7522E+002
 856.50  8.6764E+002
 857.00  8.4105E+002
 857.50  8.4192E+002
 858.00  8.6003E+002
 858.50  8.4778E+002
 859.00  8.5316E+002
 859.50  8.4279E+002
 860.00  8.4435E+002
 860.50  8.5167E+002
 861.00  8.5202E+002
 861.50  8.6060E+002
 862.00  8.5541E+002
 862.50  8.6847E+002
 863.00  8.6829E+002
 863.50  8.5975E+002
 864.00  8.6709E+002
 864.50  8.6343E+002
 865.00  8.5384E+002
 865.50  8.5151E+002
 866.00  8.5204E+002
 866.50  8.3335E+002
 867.00  8.3970E+002
 867.50  8.5378E+002
 868.00  8.5420E+002
 868.50  8.5986E+002
 869.00  8.5101E+002
 869.50  8.3251E+002
 870.00  8.5670E+002
 870.50  8.5106E+002
 871.00  8.4495E+002
 871.50  8.5665E+002
 872.00  8.3865E+002
 872.50  8.2950E+002
 873.00  8.2705E+002
 873.50  8.2860E+002
 874.00  8.3168E+002
 874.50  8.2774E+002
 875.00  8.2798E+002
 875.50  8.2109E+002
 876.00  8.3526E+002
 876.50  8.3575E+002
 877.00  8.3771E+002
 877.50  8.3774E+002
 878.00  8.4848E+002
 878.50  8.4148E+002
 879.00  8.4447E+002
 879.50  8.3496E+002
 880.00  8.2907E+002
 880.50  8.1959E+002
 881.00  8.3011E+002
 881.50  8.2762E+002
 882.00  8.2183E+002
 882.50  8.3493E+002
 883.00  8.3791E+002
 883.50  8.4548E+002
 884.00  8.2769E+002
 884.50  8.2216E+002
 885.00  8.2763E+002
 885.50  8.2165E+002
 886.00  8.2527E+002
 886.50  8.2762E+002
 887.00  8.2941E+002
 887.50  8.1822E+002
 888.00  8.1892E+002
 888.50  8.1873E+002
 889.00  8.0724E+002
 889.50  7.9755E+002
 890.00  7.9864E+002
 890.50  7.8663E+002
 891.00  7.9401E+002
 891.50  7.9860E+002
 892.00  8.0807E+002
 892.50  8.0405E+002
 893.00  8.0539E+002
 893.50  8.0848E+002
 894.00  8.0702E+002
 894.50  8.1781E+002
 895.00  8.2316E+002
 895.50  8.3106E+002
 896.00  8.1651E+002
 896.50  8.0571E+002
 897.00  7.9555E+002
 897.50  8.0254E+002
 898.00  8.1161E+002
 898.50  8.0776E+002
 899.00  8.0830E+002
 899.50  8.1704E+002
